"RT" "z_score" "Go1" "ACC" "Trial_type" "V1" "V2" "V3" "V4" "V5" "Smoothed_VTC"
"1" 0.66711 2.0928133004512 1 1 2 1 1 48 1 0 "Out_zone"
"2" 0.57484 3.9846700594293 1 1 1 1 1 48 2 0 "Out_zone"
"3" 0.75812 0.226790935277283 1 1 2 1 1 48 1 1 "Out_zone"
"4" 0.72952 0.813190667658055 1 1 1 1 1 48 2 0 "Out_zone"
"5" 0.68339 1.75901652971137 1 1 2 1 1 48 1 0 "Out_zone"
"6" 0.69607 1.4990323126978 1 1 1 1 1 48 2 0 "Out_zone"
"7" 0.65426 2.35628311027962 1 1 2 1 1 48 2 0 "Out_zone"
"8" 0.63006 2.8524674992172 1 1 1 1 1 48 1 0 "Out_zone"
"9" 0.72535 0.898690209057627 1 1 2 1 1 48 2 0 "Out_zone"
"10" 0.77129 0.0432399904379187 1 1 1 1 1 48 1 0 "Out_zone"
"11" 0.72139 0.979884018156504 1 1 2 1 1 48 2 0 "Out_zone"
"12" 0.70482 1.31962680016872 1 1 1 1 1 48 1 0 "Out_zone"
"13" 0.75163 0.359858566855996 2 0 2 1 0 48 1 0 "Out_zone"
"14" 0.70917 1.23043663108283 1 1 1 1 1 48 2 0 "Out_zone"
"15" 0.7514 0.364574368899619 1 1 2 1 1 48 1 0 "Out_zone"
"16" 0.72166 0.974348076627035 1 1 1 1 1 48 2 0 "Out_zone"
"17" 0.80139 0.660394953537961 1 1 2 1 1 48 1 0 "Out_zone"
"18" 0.78488 0.321882380754515 1 1 1 1 1 48 2 0 "Out_zone"
"19" 0.80164 0.665520825324506 1 1 2 1 1 48 2 0 "Out_zone"
"20" 0.8017 0.666751034553275 1 1 1 1 1 48 2 1 "Out_zone"
"21" 0.80187 0.670236627368126 1 1 2 1 1 48 2 0 "Out_zone"
"22" 0.70564 1.30281394070885 1 1 1 1 1 48 2 0 "Out_zone"
"23" 0.74789 0.436541608782711 1 1 2 1 1 48 1 0 "Out_zone"
"24" 0.76009 0.186399065599306 2 1 1 0 0 48 1 0 "Out_zone"
"25" 0.77229 0.0637434775840995 1 1 2 1 1 48 2 1 "Out_zone"
"26" 0.8023 0.679053126840985 1 1 1 1 1 48 2 0 "Out_zone"
"27" 0.80239 0.680898440684142 1 1 2 1 1 48 2 0 "Out_zone"
"28" 0.71898 1.0292974221788 1 1 1 1 1 48 2 0 "Out_zone"
"29" 0.79854 0.601960015171345 1 1 2 1 1 48 2 0 "Out_zone"
"30" 0.80231 0.679258161712446 1 1 1 1 1 48 1 0 "Out_zone"
"31" 0.798033333333333 0.591571581683945 2 1 2 0 0 48 1 0 "Out_zone"
"32" 0.793756666666667 0.503885001655446 2 1 1 0 0 48 1 0 "Out_zone"
"33" 0.78948 0.416198421626946 1 1 2 1 1 48 1 0 "Out_zone"
"34" 0.70256 1.36596468111909 1 1 1 1 1 48 2 0 "Out_zone"
"35" 0.79858 0.602780154657191 1 1 2 1 1 48 1 0 "Out_zone"
"36" 0.79886 0.608521131058123 1 1 1 1 1 48 2 0 "Out_zone"
"37" 0.80259 0.684999138113377 1 1 2 1 1 48 1 0 "Out_zone"
"38" 0.80113 0.655064046879953 2 1 1 0 0 48 2 0 "Out_zone"
"39" 0.79967 0.625128955646529 1 1 2 1 1 48 2 0 "Out_zone"
"40" 0.73657 0.66864108327748 1 1 1 1 1 48 2 0 "Out_zone"
"41" 0.79952 0.622053432574602 1 1 2 1 1 48 1 0 "Out_zone"
"42" 0.79944 0.620413153602908 1 1 1 1 1 48 1 0 "Out_zone"
"43" 0.79946 0.62082322334583 1 1 2 1 1 48 2 0 "Out_zone"
"44" 0.79917 0.614877212073439 1 1 1 1 1 48 1 0 "Out_zone"
"45" 0.79953 0.622258467446063 1 1 2 1 1 48 2 0 "Out_zone"
"46" 0.799705 0.625846577696645 1 0 1 0 1 48 2 0 "Out_zone"
"47" 0.79988 0.629434687947228 1 1 2 1 1 48 1 0 "Out_zone"
"48" 0.74994 0.394509460133041 1 1 1 1 1 48 1 0 "Out_zone"
"49" 0.76228 0.141496428749172 1 1 2 1 1 48 1 0 "Out_zone"
"50" 0.72009 1.00653855144654 1 1 1 1 1 48 1 0 "Out_zone"
"51" 0.7868 0.361249076075183 1 1 2 1 1 48 2 0 "Out_zone"
"52" 0.76279 0.131039650304619 1 1 1 1 1 48 1 0 "Out_zone"
"53" 0.77439 0.106800800591079 1 1 2 1 1 48 2 0 "Out_zone"
"54" 0.781753333333333 0.257774810944122 1 0 1 0 1 48 2 0 "Out_zone"
"55" 0.789116666666667 0.408748821297168 2 1 2 0 0 48 2 0 "Out_zone"
"56" 0.79648 0.559722831650212 1 1 1 1 1 48 2 0 "Out_zone"
"57" 0.79982 0.628204478718456 1 1 2 1 1 48 1 0 "Out_zone"
"58" 0.79608 0.55152143679174 1 1 1 1 1 48 1 0 "Out_zone"
"59" 0.79852 0.601549945428421 2 1 2 0 0 48 1 0 "Out_zone"
"60" 0.80096 0.651578454065102 1 1 1 1 1 48 2 0 "Out_zone"
"61" 0.80066 0.645427407921249 1 1 2 1 1 48 1 0 "Out_zone"
"62" 0.76718 0.0410293417328856 2 1 1 0 0 48 2 0 "Out_zone"
"63" 0.7337 0.727486091387018 1 1 2 1 1 48 1 0 "Out_zone"
"64" 0.72102 0.98747030840059 1 1 1 1 1 48 2 0 "Out_zone"
"65" 0.754515 0.300706006439264 2 1 2 0 0 48 1 0 "Out_zone"
"66" 0.78801 0.386058295522061 1 1 1 1 1 48 2 0 "Out_zone"
"67" 0.79461 0.521381310686855 1 0 2 0 1 48 1 0 "Out_zone"
"68" 0.80121 0.656704325851647 1 1 1 1 1 48 2 0 "Out_zone"
"69" 0.8013 0.658549639694804 1 1 2 1 1 48 1 0 "Out_zone"
"70" 0.80128 0.65813956995188 1 1 1 1 1 48 1 1 "Out_zone"
"71" 0.79735 0.577560865467389 1 1 2 1 1 48 2 0 "Out_zone"
"72" 0.76996 0.0159703525334971 2 1 1 0 0 48 1 0 "Out_zone"
"73" 0.74257 0.545620160400395 1 1 2 1 1 48 1 0 "Out_zone"
"74" 0.73849 0.629274387956812 1 1 1 1 1 48 1 0 "Out_zone"
"75" 0.73026 0.798018087169882 2 1 2 0 0 48 2 0 "Out_zone"
"76" 0.72203 0.966761786382949 1 1 1 1 1 48 2 0 "Out_zone"
"77" 0.71825 1.04426496779551 2 1 2 0 0 48 1 0 "Out_zone"
"78" 0.71447 1.12176814920807 1 1 1 1 1 48 1 0 "Out_zone"
"79" 0.79783 0.587402539297557 1 1 2 1 1 48 2 0 "Out_zone"
"80" 0.799925 0.630357344868805 1 0 1 0 1 48 2 0 "Out_zone"
"81" 0.80202 0.673312150440053 1 1 2 1 1 48 2 0 "Out_zone"
"82" 0.80202 0.673312150440053 1 1 1 1 1 48 2 0 "Out_zone"
"83" 0.80226 0.678232987355137 1 1 2 1 1 48 1 0 "Out_zone"
"84" 0.80248 0.682743754527296 1 1 1 1 1 48 1 1 "Out_zone"
"85" 0.80242 0.681513545298527 1 1 2 1 1 48 2 0 "Out_zone"
"86" 0.8025 0.68315382427022 1 1 1 1 1 48 2 1 "Out_zone"
"87" 0.79862 0.603600294143039 1 1 2 1 1 48 1 0 "Out_zone"
"88" 0.79866 0.604420433628887 1 1 1 1 1 48 1 0 "Out_zone"
"89" 0.79847 0.600524771071112 1 1 2 1 1 48 1 0 "Out_zone"
"90" 0.80249 0.682948789398759 1 1 1 1 1 48 1 1 "Out_zone"
"91" 0.76149 0.157694183594654 1 1 2 1 1 48 1 0 "Out_zone"
"92" 0.79006 0.428090444171731 1 1 1 1 1 48 2 0 "Out_zone"
"93" 0.79866 0.604420433628887 1 1 2 1 1 48 2 0 "Out_zone"
"94" 0.79954 0.622463502317526 1 1 1 1 1 48 1 0 "Out_zone"
"95" 0.7994375 0.620361894885042 2 1 2 0 0 48 1 0 "Out_zone"
"96" 0.799335 0.618260287452559 2 1 1 0 0 48 2 0 "Out_zone"
"97" 0.7992325 0.616158680020075 1 0 2 0 1 48 1 0 "Out_zone"
"98" 0.79913 0.614057072587591 1 1 1 1 1 48 2 0 "Out_zone"
"99" 0.79936 0.618772874631212 1 1 2 1 1 48 2 0 "Out_zone"
"100" 0.79928 0.617132595659518 1 1 1 1 1 48 2 0 "Out_zone"
"101" 0.799695 0.625641542825184 2 1 2 0 0 48 1 0 "Out_zone"
"102" 0.80011 0.634150489990848 1 1 1 1 1 48 2 0 "Out_zone"
"103" 0.79964 0.624513851032144 1 1 2 1 1 48 2 0 "Out_zone"
"104" 0.80043 0.640711605877626 1 1 1 1 1 48 1 0 "Out_zone"
"105" 0.8 0.63189510640477 1 1 2 1 1 48 1 0 "Out_zone"
"106" 0.79968 0.62533399051799 1 1 1 1 1 48 2 0 "Out_zone"
"107" 0.79976 0.626974269489686 1 1 2 1 1 48 2 0 "Out_zone"
"108" 0.80037 0.639481396648856 1 1 1 1 1 48 2 0 "Out_zone"
"109" 0.6627 2.18323367876586 1 1 2 1 1 48 1 0 "Out_zone"
"110" 0.80007 0.633330350505 1 1 1 1 1 48 2 0 "Out_zone"
"111" 0.793745 0.503645794305406 1 0 2 0 1 48 1 0 "Out_zone"
"112" 0.78742 0.373961238105814 1 1 1 1 1 48 2 0 "Out_zone"
"113" 0.79603 0.550496262434431 1 1 2 1 1 48 2 0 "Out_zone"
"114" 0.80084 0.64911803560756 1 1 1 1 1 48 1 0 "Out_zone"
"115" 0.80071 0.646452582278558 1 1 2 1 1 48 1 0 "Out_zone"
"116" 0.80071 0.646452582278558 1 1 1 1 1 48 2 0 "Out_zone"
"117" 0.80078 0.647887826378791 1 1 2 1 1 48 1 0 "Out_zone"
"118" 0.80089 0.650143209964869 1 1 1 1 1 48 1 0 "Out_zone"
"119" 0.79648 0.559722831650212 1 1 2 1 1 48 1 0 "Out_zone"
"120" 0.80111 0.654653977137029 1 1 1 1 1 48 1 0 "Out_zone"
"121" 0.70894 1.23515243312645 2 0 2 1 0 48 2 0 "Out_zone"
"122" 0.80143 0.661215093023807 1 1 1 1 1 48 2 0 "Out_zone"
"123" 0.801435 0.661317610459538 1 0 2 0 1 48 1 0 "Out_zone"
"124" 0.80144 0.66142012789527 1 1 1 1 1 48 2 0 "Out_zone"
"125" 0.80189 0.67064669711105 1 1 2 1 1 48 1 0 "Out_zone"
"126" 0.80156 0.663880546352812 1 1 1 1 1 48 2 0 "Out_zone"
"127" 0.7926 0.48016930152303 2 0 2 1 0 48 2 1 "Out_zone"
"128" 0.797155 0.573562685473885 1 0 1 0 1 48 1 0 "Out_zone"
"129" 0.80171 0.666956069424738 1 1 2 1 1 48 1 0 "Out_zone"
"130" 0.80186 0.670031592496665 1 1 1 1 1 48 2 0 "Out_zone"
"131" 0.80189 0.67064669711105 1 1 2 1 1 48 1 0 "Out_zone"
"132" 0.80182 0.669211453010817 1 1 1 1 1 48 1 0 "Out_zone"
"133" 0.8019 0.670851731982511 1 1 2 1 1 48 2 0 "Out_zone"
"134" 0.7931 0.490421045096122 1 1 1 1 1 48 2 0 "Out_zone"
"135" 0.80227 0.6784380222266 1 1 2 1 1 48 2 0 "Out_zone"
"136" 0.80232 0.679463196583909 1 1 1 1 1 48 1 0 "Out_zone"
"137" 0.8024 0.681103475555603 1 1 2 1 1 48 2 0 "Out_zone"
"138" 0.80245 0.682128649912911 1 1 1 1 1 48 1 1 "Out_zone"
"139" 0.80253 0.683768928884605 1 1 2 1 1 48 2 0 "Out_zone"
"140" 0.80243 0.681718580169987 1 1 1 1 1 48 1 0 "Out_zone"
"141" 0.75617 0.266772735212335 1 1 2 1 1 48 1 0 "Out_zone"
"142" 0.7986 0.603190224400115 1 1 1 1 1 48 1 0 "Out_zone"
"143" 0.79866 0.604420433628887 1 1 2 1 1 48 2 0 "Out_zone"
"144" 0.79883 0.607906026443738 1 1 1 1 1 48 2 0 "Out_zone"
"145" 0.73644 0.671306536606483 1 1 2 1 1 48 1 0 "Out_zone"
"146" 0.79912 0.613852037716131 1 1 1 1 1 48 2 0 "Out_zone"
"147" 0.7531 0.329718440751111 1 1 2 1 1 48 2 0 "Out_zone"
"148" 0.77835 0.187994609689954 1 1 1 1 1 48 2 0 "Out_zone"
"149" 0.75677 0.254470642924626 1 1 2 1 1 48 1 0 "Out_zone"
"150" 0.69013 1.62082302634611 1 1 1 1 1 48 1 0 "Out_zone"
"151" 0.79961 0.623898746417759 1 1 2 1 1 48 1 0 "Out_zone"
"152" 0.799595 0.623591194110567 2 1 1 0 0 48 2 0 "Out_zone"
"153" 0.79958 0.623283641803372 1 1 2 1 1 48 1 0 "Out_zone"
"154" 0.79949 0.621438327960217 1 1 1 1 1 48 2 0 "Out_zone"
"155" 0.79895 0.61036644490128 1 1 2 1 1 48 2 0 "Out_zone"
"156" 0.7997 0.625744060260914 1 1 1 1 1 48 1 0 "Out_zone"
"157" 0.79985 0.62881958333284 1 1 2 1 1 48 2 0 "Out_zone"
"158" 0.799705 0.625846577696645 2 1 1 0 0 48 2 0 "Out_zone"
"159" 0.79956 0.62287357206045 1 1 2 1 1 48 1 0 "Out_zone"
"160" 0.80029 0.63784111767716 1 1 1 1 1 48 1 0 "Out_zone"
"161" 0.79947 0.621028258217293 1 1 2 1 1 48 2 0 "Out_zone"
"162" 0.79953 0.622258467446065 1 0 1 0 1 48 2 0 "Out_zone"
"163" 0.79959 0.623488676674835 1 1 2 1 1 48 2 0 "Out_zone"
"164" 0.79962 0.62410378128922 1 1 1 1 1 48 1 0 "Out_zone"
"165" 0.79984 0.62861454846138 1 1 2 1 1 48 1 0 "Out_zone"
"166" 0.79983 0.628409513589919 1 1 1 1 1 48 1 0 "Out_zone"
"167" 0.69602 1.50005748705511 1 1 2 1 1 48 1 0 "Out_zone"
"168" 0.79154 0.45843560514808 1 1 1 1 1 48 2 0 "Out_zone"
"169" 0.75616 0.266977770083799 1 0 2 0 1 48 2 0 "Out_zone"
"170" 0.72078 0.992391145315674 1 1 1 1 1 48 2 0 "Out_zone"
"171" 0.80074 0.647067686892942 1 1 2 1 1 48 2 0 "Out_zone"
"172" 0.75853 0.218384505547348 1 1 1 1 1 48 1 0 "Out_zone"
"173" 0.71795 1.05041601393937 1 1 2 1 1 48 1 0 "Out_zone"
"174" 0.76755 0.0334430514887991 1 1 1 1 1 48 2 0 "Out_zone"
"175" 0.75863 0.21633415683273 1 1 2 1 1 48 1 0 "Out_zone"
"176" 0.8009 0.65034824483633 1 1 1 1 1 48 2 0 "Out_zone"
"177" 0.8007 0.646247547407094 1 1 2 1 1 48 1 0 "Out_zone"
"178" 0.69715 1.47688854657992 1 1 1 1 1 48 2 0 "Out_zone"
"179" 0.56789 4.12716929509526 1 1 2 1 1 48 1 0 "Out_zone"
"180" 0.74236 0.549925892701092 1 1 1 1 1 48 1 0 "Out_zone"
"181" 0.75164 0.359653531984535 1 1 2 1 1 48 2 0 "Out_zone"
"182" 0.70509 1.31409085863925 1 1 1 1 1 48 1 0 "Out_zone"
"183" 0.63529 2.74523426144267 1 1 2 1 1 48 2 0 "Out_zone"
"184" 0.63486 2.75405076091553 1 1 1 1 1 48 1 0 "Out_zone"
"185" 0.7221 0.965326542282716 1 1 2 1 1 48 1 0 "Out_zone"
"186" 0.7017 1.3835976800648 1 1 1 1 1 48 2 0 "Out_zone"
"187" 0.78889 0.4041013642107 1 1 2 1 1 48 2 0 "Out_zone"
"188" 0.80186 0.670031592496665 1 1 1 1 1 48 1 1 "Out_zone"
"189" 0.80192 0.671261801725435 2 1 2 0 0 48 2 0 "Out_zone"
"190" 0.80198 0.672492010954207 2 1 1 0 0 48 1 0 "Out_zone"
"191" 0.80204 0.673722220182977 1 1 2 1 1 48 2 0 "Out_zone"
"192" 0.799925 0.630357344868805 1 0 1 0 1 48 1 0 "Out_zone"
"193" 0.79781 0.586992469554633 1 1 2 1 1 48 1 0 "Out_zone"
"194" 0.80246 0.682333684784372 1 1 1 1 1 48 1 0 "Out_zone"
"195" 0.79862 0.603600294143039 1 1 2 1 1 48 1 0 "Out_zone"
"196" 0.80008 0.633535385376463 1 1 1 1 1 48 2 0 "Out_zone"
"197" 0.68191 1.78936169068772 1 1 2 1 1 48 1 0 "Out_zone"
"198" 0.79811 0.593143515698487 1 1 1 1 1 48 1 1 "Out_zone"
"199" 0.65654 2.30953515958633 1 1 2 1 1 48 2 0 "Out_zone"
"200" 0.73988 0.600774540823621 1 1 1 1 1 48 2 0 "Out_zone"
"201" 0.73221 0.758036287234827 1 1 2 1 1 48 2 0 "Out_zone"
"202" 0.76529 0.0797809324391662 1 1 1 1 1 48 1 0 "Out_zone"
"203" 0.58206 3.83663488223387 1 1 2 1 1 48 1 0 "Out_zone"
"204" 0.58707 3.73391241163151 1 1 1 1 1 48 2 0 "Out_zone"
"205" 0.79033 0.4336263857012 1 1 2 1 1 48 1 0 "Out_zone"
"206" 0.69018 1.61979785198881 2 0 1 1 0 48 1 0 "Out_zone"
"207" 0.744945 0.496924378428216 1 0 2 0 1 48 1 1 "Out_zone"
"208" 0.79971 0.625949095132377 1 1 1 1 1 48 2 0 "Out_zone"
"209" 0.79908 0.613031898230282 1 1 2 1 1 48 2 1 "Out_zone"
"210" 0.65716 2.2968229975557 2 0 1 1 0 48 1 0 "Out_zone"
"211" 0.69212 1.58002108692522 2 1 2 0 0 48 2 1 "Out_zone"
"212" 0.72708 0.863219176294734 1 0 1 0 1 48 1 0 "Out_zone"
"213" 0.76204 0.146417265664253 1 1 2 1 1 48 1 0 "Out_zone"
"214" 0.7702 0.0208911894485809 1 1 1 1 1 48 1 0 "Out_zone"
"215" 0.72886 0.826722969174534 1 1 2 1 1 48 2 0 "Out_zone"
"216" 0.68328 1.76127191329745 1 1 1 1 1 48 1 0 "Out_zone"
"217" 0.74185 0.560382671145644 1 0 2 0 1 48 2 1 "Out_zone"
"218" 0.80042 0.640506571006165 1 1 1 1 1 48 1 0 "Out_zone"
"219" 0.80044 0.640916640749089 1 1 2 1 1 48 1 0 "Out_zone"
"220" 0.8002 0.635995803834005 1 1 1 1 1 48 1 0 "Out_zone"
